# E (eV) pdos(E) 
 -5.835  0.000E+00
 -5.825  0.392E-05
 -5.815  0.314E-04
 -5.805  0.106E-03
 -5.795  0.252E-03
 -5.785  0.490E-03
 -5.775  0.848E-03
 -5.765  0.135E-02
 -5.755  0.200E-02
 -5.745  0.286E-02
 -5.735  0.392E-02
 -5.725  0.522E-02
 -5.715  0.678E-02
 -5.705  0.862E-02
 -5.695  0.878E-02
 -5.685  0.880E-02
 -5.675  0.900E-02
 -5.665  0.944E-02
 -5.655  0.101E-01
 -5.645  0.109E-01
 -5.635  0.117E-01
 -5.625  0.125E-01
 -5.615  0.134E-01
 -5.605  0.143E-01
 -5.595  0.152E-01
 -5.585  0.161E-01
 -5.575  0.171E-01
 -5.565  0.181E-01
 -5.555  0.191E-01
 -5.545  0.202E-01
 -5.535  0.214E-01
 -5.525  0.224E-01
 -5.515  0.236E-01
 -5.505  0.248E-01
 -5.495  0.260E-01
 -5.485  0.274E-01
 -5.475  0.286E-01
 -5.465  0.298E-01
 -5.455  0.310E-01
 -5.445  0.322E-01
 -5.435  0.334E-01
 -5.425  0.344E-01
 -5.415  0.354E-01
 -5.405  0.364E-01
 -5.395  0.372E-01
 -5.385  0.380E-01
 -5.375  0.388E-01
 -5.365  0.394E-01
 -5.355  0.400E-01
 -5.345  0.408E-01
 -5.335  0.416E-01
 -5.325  0.424E-01
 -5.315  0.434E-01
 -5.305  0.444E-01
 -5.295  0.454E-01
 -5.285  0.464E-01
 -5.275  0.474E-01
 -5.265  0.484E-01
 -5.255  0.494E-01
 -5.245  0.506E-01
 -5.235  0.516E-01
 -5.225  0.526E-01
 -5.215  0.536E-01
 -5.205  0.548E-01
 -5.195  0.558E-01
 -5.185  0.568E-01
 -5.175  0.580E-01
 -5.165  0.590E-01
 -5.155  0.602E-01
 -5.145  0.612E-01
 -5.135  0.624E-01
 -5.125  0.636E-01
 -5.115  0.646E-01
 -5.105  0.658E-01
 -5.095  0.670E-01
 -5.085  0.682E-01
 -5.075  0.694E-01
 -5.065  0.706E-01
 -5.055  0.718E-01
 -5.045  0.730E-01
 -5.035  0.742E-01
 -5.025  0.754E-01
 -5.015  0.764E-01
 -5.005  0.770E-01
 -4.995  0.778E-01
 -4.985  0.786E-01
 -4.975  0.794E-01
 -4.965  0.804E-01
 -4.955  0.814E-01
 -4.945  0.822E-01
 -4.935  0.832E-01
 -4.925  0.842E-01
 -4.915  0.850E-01
 -4.905  0.860E-01
 -4.895  0.868E-01
 -4.885  0.878E-01
 -4.875  0.888E-01
 -4.865  0.896E-01
 -4.855  0.906E-01
 -4.845  0.914E-01
 -4.835  0.924E-01
 -4.825  0.932E-01
 -4.815  0.942E-01
 -4.805  0.950E-01
 -4.795  0.960E-01
 -4.785  0.968E-01
 -4.775  0.978E-01
 -4.765  0.986E-01
 -4.755  0.996E-01
 -4.745  0.100E+00
 -4.735  0.101E+00
 -4.725  0.102E+00
 -4.715  0.103E+00
 -4.705  0.104E+00
 -4.695  0.105E+00
 -4.685  0.106E+00
 -4.675  0.107E+00
 -4.665  0.108E+00
 -4.655  0.109E+00
 -4.645  0.110E+00
 -4.635  0.111E+00
 -4.625  0.112E+00
 -4.615  0.113E+00
 -4.605  0.114E+00
 -4.595  0.115E+00
 -4.585  0.116E+00
 -4.575  0.117E+00
 -4.565  0.118E+00
 -4.555  0.119E+00
 -4.545  0.121E+00
 -4.535  0.122E+00
 -4.525  0.123E+00
 -4.515  0.124E+00
 -4.505  0.125E+00
 -4.495  0.126E+00
 -4.485  0.127E+00
 -4.475  0.128E+00
 -4.465  0.129E+00
 -4.455  0.130E+00
 -4.445  0.131E+00
 -4.435  0.132E+00
 -4.425  0.133E+00
 -4.415  0.134E+00
 -4.405  0.135E+00
 -4.395  0.135E+00
 -4.385  0.136E+00
 -4.375  0.137E+00
 -4.365  0.138E+00
 -4.355  0.139E+00
 -4.345  0.139E+00
 -4.335  0.140E+00
 -4.325  0.141E+00
 -4.315  0.142E+00
 -4.305  0.143E+00
 -4.295  0.144E+00
 -4.285  0.145E+00
 -4.275  0.146E+00
 -4.265  0.147E+00
 -4.255  0.148E+00
 -4.245  0.149E+00
 -4.235  0.150E+00
 -4.225  0.151E+00
 -4.215  0.152E+00
 -4.205  0.153E+00
 -4.195  0.154E+00
 -4.185  0.155E+00
 -4.175  0.156E+00
 -4.165  0.157E+00
 -4.155  0.158E+00
 -4.145  0.159E+00
 -4.135  0.160E+00
 -4.125  0.161E+00
 -4.115  0.162E+00
 -4.105  0.163E+00
 -4.095  0.164E+00
 -4.085  0.165E+00
 -4.075  0.166E+00
 -4.065  0.167E+00
 -4.055  0.168E+00
 -4.045  0.169E+00
 -4.035  0.170E+00
 -4.025  0.171E+00
 -4.015  0.172E+00
 -4.005  0.173E+00
 -3.995  0.174E+00
 -3.985  0.176E+00
 -3.975  0.177E+00
 -3.965  0.178E+00
 -3.955  0.179E+00
 -3.945  0.180E+00
 -3.935  0.181E+00
 -3.925  0.183E+00
 -3.915  0.184E+00
 -3.905  0.185E+00
 -3.895  0.186E+00
 -3.885  0.188E+00
 -3.875  0.189E+00
 -3.865  0.190E+00
 -3.855  0.191E+00
 -3.845  0.193E+00
 -3.835  0.194E+00
 -3.825  0.195E+00
 -3.815  0.196E+00
 -3.805  0.198E+00
 -3.795  0.199E+00
 -3.785  0.200E+00
 -3.775  0.202E+00
 -3.765  0.204E+00
 -3.755  0.204E+00
 -3.745  0.206E+00
 -3.735  0.208E+00
 -3.725  0.208E+00
 -3.715  0.210E+00
 -3.705  0.212E+00
 -3.695  0.214E+00
 -3.685  0.214E+00
 -3.675  0.216E+00
 -3.665  0.218E+00
 -3.655  0.220E+00
 -3.645  0.222E+00
 -3.635  0.224E+00
 -3.625  0.224E+00
 -3.615  0.226E+00
 -3.605  0.228E+00
 -3.595  0.232E+00
 -3.585  0.236E+00
 -3.575  0.240E+00
 -3.565  0.244E+00
 -3.555  0.250E+00
 -3.545  0.256E+00
 -3.535  0.262E+00
 -3.525  0.270E+00
 -3.515  0.278E+00
 -3.505  0.286E+00
 -3.495  0.294E+00
 -3.485  0.302E+00
 -3.475  0.306E+00
 -3.465  0.304E+00
 -3.455  0.296E+00
 -3.445  0.282E+00
 -3.435  0.266E+00
 -3.425  0.266E+00
 -3.415  0.266E+00
 -3.405  0.266E+00
 -3.395  0.266E+00
 -3.385  0.266E+00
 -3.375  0.266E+00
 -3.365  0.266E+00
 -3.355  0.266E+00
 -3.345  0.268E+00
 -3.335  0.268E+00
 -3.325  0.268E+00
 -3.315  0.268E+00
 -3.305  0.268E+00
 -3.295  0.268E+00
 -3.285  0.268E+00
 -3.275  0.268E+00
 -3.265  0.268E+00
 -3.255  0.268E+00
 -3.245  0.270E+00
 -3.235  0.268E+00
 -3.225  0.268E+00
 -3.215  0.268E+00
 -3.205  0.266E+00
 -3.195  0.264E+00
 -3.185  0.264E+00
 -3.175  0.262E+00
 -3.165  0.258E+00
 -3.155  0.256E+00
 -3.145  0.254E+00
 -3.135  0.250E+00
 -3.125  0.248E+00
 -3.115  0.248E+00
 -3.105  0.248E+00
 -3.095  0.248E+00
 -3.085  0.250E+00
 -3.075  0.250E+00
 -3.065  0.252E+00
 -3.055  0.252E+00
 -3.045  0.252E+00
 -3.035  0.254E+00
 -3.025  0.254E+00
 -3.015  0.256E+00
 -3.005  0.256E+00
 -2.995  0.256E+00
 -2.985  0.256E+00
 -2.975  0.256E+00
 -2.965  0.256E+00
 -2.955  0.256E+00
 -2.945  0.254E+00
 -2.935  0.254E+00
 -2.925  0.254E+00
 -2.915  0.252E+00
 -2.905  0.252E+00
 -2.895  0.250E+00
 -2.885  0.250E+00
 -2.875  0.248E+00
 -2.865  0.248E+00
 -2.855  0.246E+00
 -2.845  0.244E+00
 -2.835  0.242E+00
 -2.825  0.242E+00
 -2.815  0.240E+00
 -2.805  0.238E+00
 -2.795  0.236E+00
 -2.785  0.234E+00
 -2.775  0.232E+00
 -2.765  0.230E+00
 -2.755  0.228E+00
 -2.745  0.228E+00
 -2.735  0.226E+00
 -2.725  0.226E+00
 -2.715  0.224E+00
 -2.705  0.224E+00
 -2.695  0.224E+00
 -2.685  0.222E+00
 -2.675  0.222E+00
 -2.665  0.220E+00
 -2.655  0.220E+00
 -2.645  0.220E+00
 -2.635  0.218E+00
 -2.625  0.218E+00
 -2.615  0.216E+00
 -2.605  0.216E+00
 -2.595  0.216E+00
 -2.585  0.214E+00
 -2.575  0.214E+00
 -2.565  0.214E+00
 -2.555  0.212E+00
 -2.545  0.212E+00
 -2.535  0.212E+00
 -2.525  0.210E+00
 -2.515  0.210E+00
 -2.505  0.210E+00
 -2.495  0.210E+00
 -2.485  0.208E+00
 -2.475  0.208E+00
 -2.465  0.208E+00
 -2.455  0.206E+00
 -2.445  0.206E+00
 -2.435  0.204E+00
 -2.425  0.204E+00
 -2.415  0.204E+00
 -2.405  0.202E+00
 -2.395  0.202E+00
 -2.385  0.200E+00
 -2.375  0.200E+00
 -2.365  0.200E+00
 -2.355  0.200E+00
 -2.345  0.199E+00
 -2.335  0.199E+00
 -2.325  0.198E+00
 -2.315  0.197E+00
 -2.305  0.196E+00
 -2.295  0.196E+00
 -2.285  0.195E+00
 -2.275  0.193E+00
 -2.265  0.192E+00
 -2.255  0.220E+00
 -2.245  0.222E+00
 -2.235  0.218E+00
 -2.225  0.212E+00
 -2.215  0.208E+00
 -2.205  0.202E+00
 -2.195  0.197E+00
 -2.185  0.193E+00
 -2.175  0.188E+00
 -2.165  0.183E+00
 -2.155  0.179E+00
 -2.145  0.175E+00
 -2.135  0.171E+00
 -2.125  0.167E+00
 -2.115  0.163E+00
 -2.105  0.159E+00
 -2.095  0.156E+00
 -2.085  0.152E+00
 -2.075  0.148E+00
 -2.065  0.144E+00
 -2.055  0.140E+00
 -2.045  0.137E+00
 -2.035  0.133E+00
 -2.025  0.129E+00
 -2.015  0.125E+00
 -2.005  0.122E+00
 -1.995  0.118E+00
 -1.985  0.115E+00
 -1.975  0.111E+00
 -1.965  0.107E+00
 -1.955  0.104E+00
 -1.945  0.100E+00
 -1.935  0.968E-01
 -1.925  0.934E-01
 -1.915  0.898E-01
 -1.905  0.864E-01
 -1.895  0.830E-01
 -1.885  0.796E-01
 -1.875  0.764E-01
 -1.865  0.730E-01
 -1.855  0.698E-01
 -1.845  0.666E-01
 -1.835  0.634E-01
 -1.825  0.602E-01
 -1.815  0.572E-01
 -1.805  0.542E-01
 -1.795  0.512E-01
 -1.785  0.482E-01
 -1.775  0.452E-01
 -1.765  0.424E-01
 -1.755  0.394E-01
 -1.745  0.366E-01
 -1.735  0.340E-01
 -1.725  0.312E-01
 -1.715  0.286E-01
 -1.705  0.260E-01
 -1.695  0.234E-01
 -1.685  0.208E-01
 -1.675  0.184E-01
 -1.665  0.164E-01
 -1.655  0.148E-01
 -1.645  0.137E-01
 -1.635  0.130E-01
 -1.625  0.127E-01
 -1.615  0.127E-01
 -1.605  0.131E-01
 -1.595  0.138E-01
 -1.585  0.147E-01
 -1.575  0.160E-01
 -1.565  0.176E-01
 -1.555  0.194E-01
 -1.545  0.216E-01
 -1.535  0.240E-01
 -1.525  0.272E-01
 -1.515  0.312E-01
 -1.505  0.352E-01
 -1.495  0.394E-01
 -1.485  0.436E-01
 -1.475  0.478E-01
 -1.465  0.520E-01
 -1.455  0.564E-01
 -1.445  0.608E-01
 -1.435  0.654E-01
 -1.425  0.700E-01
 -1.415  0.746E-01
 -1.405  0.792E-01
 -1.395  0.840E-01
 -1.385  0.890E-01
 -1.375  0.938E-01
 -1.365  0.988E-01
 -1.355  0.104E+00
 -1.345  0.109E+00
 -1.335  0.114E+00
 -1.325  0.119E+00
 -1.315  0.125E+00
 -1.305  0.130E+00
 -1.295  0.136E+00
 -1.285  0.141E+00
 -1.275  0.147E+00
 -1.265  0.152E+00
 -1.255  0.158E+00
 -1.245  0.163E+00
 -1.235  0.169E+00
 -1.225  0.175E+00
 -1.215  0.180E+00
 -1.205  0.186E+00
 -1.195  0.192E+00
 -1.185  0.198E+00
 -1.175  0.204E+00
 -1.165  0.210E+00
 -1.155  0.216E+00
 -1.145  0.220E+00
 -1.135  0.226E+00
 -1.125  0.232E+00
 -1.115  0.238E+00
 -1.105  0.244E+00
 -1.095  0.250E+00
 -1.085  0.256E+00
 -1.075  0.262E+00
 -1.065  0.268E+00
 -1.055  0.274E+00
 -1.045  0.280E+00
 -1.035  0.286E+00
 -1.025  0.292E+00
 -1.015  0.298E+00
 -1.005  0.304E+00
 -0.995  0.310E+00
 -0.985  0.316E+00
 -0.975  0.322E+00
 -0.965  0.326E+00
 -0.955  0.332E+00
 -0.945  0.338E+00
 -0.935  0.344E+00
 -0.925  0.352E+00
 -0.915  0.364E+00
 -0.905  0.382E+00
 -0.895  0.380E+00
 -0.885  0.370E+00
 -0.875  0.372E+00
 -0.865  0.382E+00
 -0.855  0.390E+00
 -0.845  0.398E+00
 -0.835  0.406E+00
 -0.825  0.412E+00
 -0.815  0.420E+00
 -0.805  0.428E+00
 -0.795  0.434E+00
 -0.785  0.442E+00
 -0.775  0.448E+00
 -0.765  0.456E+00
 -0.755  0.466E+00
 -0.745  0.478E+00
 -0.735  0.490E+00
 -0.725  0.506E+00
 -0.715  0.522E+00
 -0.705  0.658E+00
 -0.695  0.690E+00
 -0.685  0.724E+00
 -0.675  0.760E+00
 -0.665  0.800E+00
 -0.655  0.842E+00
 -0.645  0.886E+00
 -0.635  0.934E+00
 -0.625  0.984E+00
 -0.615  0.104E+01
 -0.605  0.108E+01
 -0.595  0.108E+01
 -0.585  0.105E+01
 -0.575  0.101E+01
 -0.565  0.974E+00
 -0.555  0.936E+00
 -0.545  0.902E+00
 -0.535  0.868E+00
 -0.525  0.836E+00
 -0.515  0.808E+00
 -0.505  0.780E+00
 -0.495  0.752E+00
 -0.485  0.728E+00
 -0.475  0.706E+00
 -0.465  0.684E+00
 -0.455  0.664E+00
 -0.445  0.646E+00
 -0.435  0.628E+00
 -0.425  0.612E+00
 -0.415  0.596E+00
 -0.405  0.582E+00
 -0.395  0.568E+00
 -0.385  0.554E+00
 -0.375  0.542E+00
 -0.365  0.532E+00
 -0.355  0.522E+00
 -0.345  0.512E+00
 -0.335  0.504E+00
 -0.325  0.496E+00
 -0.315  0.490E+00
 -0.305  0.482E+00
 -0.295  0.476E+00
 -0.285  0.472E+00
 -0.275  0.466E+00
 -0.265  0.460E+00
 -0.255  0.456E+00
 -0.245  0.450E+00
 -0.235  0.446E+00
 -0.225  0.440E+00
 -0.215  0.436E+00
 -0.205  0.432E+00
 -0.195  0.428E+00
 -0.185  0.426E+00
 -0.175  0.422E+00
 -0.165  0.418E+00
 -0.155  0.414E+00
 -0.145  0.412E+00
 -0.135  0.408E+00
 -0.125  0.406E+00
 -0.115  0.402E+00
 -0.105  0.398E+00
 -0.095  0.396E+00
 -0.085  0.392E+00
 -0.075  0.390E+00
 -0.065  0.386E+00
 -0.055  0.384E+00
 -0.045  0.382E+00
 -0.035  0.378E+00
 -0.025  0.376E+00
 -0.015  0.372E+00
 -0.005  0.370E+00
  0.005  0.368E+00
  0.015  0.364E+00
  0.025  0.362E+00
  0.035  0.360E+00
  0.045  0.358E+00
  0.055  0.354E+00
  0.065  0.352E+00
  0.075  0.350E+00
  0.085  0.346E+00
  0.095  0.344E+00
  0.105  0.342E+00
  0.115  0.340E+00
  0.125  0.336E+00
  0.135  0.334E+00
  0.145  0.332E+00
  0.155  0.330E+00
  0.165  0.326E+00
  0.175  0.324E+00
  0.185  0.322E+00
  0.195  0.320E+00
  0.205  0.316E+00
  0.215  0.314E+00
  0.225  0.312E+00
  0.235  0.310E+00
  0.245  0.308E+00
  0.255  0.306E+00
  0.265  0.302E+00
  0.275  0.300E+00
  0.285  0.298E+00
  0.295  0.296E+00
  0.305  0.294E+00
  0.315  0.292E+00
  0.325  0.290E+00
  0.335  0.288E+00
  0.345  0.286E+00
  0.355  0.284E+00
  0.365  0.282E+00
  0.375  0.280E+00
  0.385  0.278E+00
  0.395  0.276E+00
  0.405  0.274E+00
  0.415  0.272E+00
  0.425  0.270E+00
  0.435  0.268E+00
  0.445  0.264E+00
  0.455  0.262E+00
  0.465  0.260E+00
  0.475  0.258E+00
  0.485  0.256E+00
  0.495  0.254E+00
  0.505  0.252E+00
  0.515  0.250E+00
  0.525  0.248E+00
  0.535  0.248E+00
  0.545  0.246E+00
  0.555  0.244E+00
  0.565  0.242E+00
  0.575  0.242E+00
  0.585  0.240E+00
  0.595  0.240E+00
  0.605  0.238E+00
  0.615  0.238E+00
  0.625  0.236E+00
  0.635  0.236E+00
  0.645  0.236E+00
  0.655  0.234E+00
  0.665  0.234E+00
  0.675  0.232E+00
  0.685  0.232E+00
  0.695  0.230E+00
  0.705  0.230E+00
  0.715  0.228E+00
  0.725  0.228E+00
  0.735  0.228E+00
  0.745  0.226E+00
  0.755  0.226E+00
  0.765  0.224E+00
  0.775  0.224E+00
  0.785  0.222E+00
  0.795  0.222E+00
  0.805  0.220E+00
  0.815  0.220E+00
  0.825  0.220E+00
  0.835  0.218E+00
  0.845  0.218E+00
  0.855  0.216E+00
  0.865  0.216E+00
  0.875  0.214E+00
  0.885  0.214E+00
  0.895  0.212E+00
  0.905  0.212E+00
  0.915  0.210E+00
  0.925  0.210E+00
  0.935  0.210E+00
  0.945  0.208E+00
  0.955  0.208E+00
  0.965  0.206E+00
  0.975  0.206E+00
  0.985  0.204E+00
  0.995  0.204E+00
  1.005  0.202E+00
  1.015  0.202E+00
  1.025  0.202E+00
  1.035  0.200E+00
  1.045  0.199E+00
  1.055  0.198E+00
  1.065  0.198E+00
  1.075  0.197E+00
  1.085  0.196E+00
  1.095  0.195E+00
  1.105  0.194E+00
  1.115  0.193E+00
  1.125  0.192E+00
  1.135  0.192E+00
  1.145  0.191E+00
  1.155  0.190E+00
  1.165  0.189E+00
  1.175  0.188E+00
  1.185  0.187E+00
  1.195  0.186E+00
  1.205  0.186E+00
  1.215  0.185E+00
  1.225  0.184E+00
  1.235  0.183E+00
  1.245  0.182E+00
  1.255  0.181E+00
  1.265  0.181E+00
  1.275  0.180E+00
  1.285  0.179E+00
  1.295  0.178E+00
  1.305  0.177E+00
  1.315  0.177E+00
  1.325  0.176E+00
  1.335  0.175E+00
  1.345  0.174E+00
  1.355  0.166E+00
  1.365  0.162E+00
  1.375  0.160E+00
  1.385  0.159E+00
  1.395  0.158E+00
  1.405  0.157E+00
  1.415  0.156E+00
  1.425  0.155E+00
  1.435  0.154E+00
  1.445  0.153E+00
  1.455  0.152E+00
  1.465  0.152E+00
  1.475  0.151E+00
  1.485  0.150E+00
  1.495  0.149E+00
  1.505  0.148E+00
  1.515  0.147E+00
  1.525  0.147E+00
  1.535  0.146E+00
  1.545  0.145E+00
  1.555  0.145E+00
  1.565  0.144E+00
  1.575  0.143E+00
  1.585  0.143E+00
  1.595  0.142E+00
  1.605  0.142E+00
  1.615  0.141E+00
  1.625  0.141E+00
  1.635  0.140E+00
  1.645  0.140E+00
  1.655  0.139E+00
  1.665  0.139E+00
  1.675  0.138E+00
  1.685  0.138E+00
  1.695  0.137E+00
  1.705  0.137E+00
  1.715  0.137E+00
  1.725  0.136E+00
  1.735  0.136E+00
  1.745  0.135E+00
  1.755  0.135E+00
  1.765  0.143E+00
  1.775  0.163E+00
  1.785  0.195E+00
  1.795  0.240E+00
  1.805  0.298E+00
  1.815  0.366E+00
  1.825  0.448E+00
  1.835  0.518E+00
  1.845  0.522E+00
  1.855  0.462E+00
  1.865  0.482E+00
  1.875  0.502E+00
  1.885  0.524E+00
  1.895  0.548E+00
  1.905  0.572E+00
  1.915  0.598E+00
  1.925  0.626E+00
  1.935  0.654E+00
  1.945  0.686E+00
  1.955  0.716E+00
  1.965  0.742E+00
  1.975  0.766E+00
  1.985  0.790E+00
  1.995  0.814E+00
  2.005  0.838E+00
  2.015  0.862E+00
  2.025  0.884E+00
  2.035  0.908E+00
  2.045  0.930E+00
  2.055  0.954E+00
  2.065  0.974E+00
  2.075  0.996E+00
  2.085  0.102E+01
  2.095  0.104E+01
  2.105  0.106E+01
  2.115  0.108E+01
  2.125  0.109E+01
  2.135  0.109E+01
  2.145  0.110E+01
  2.155  0.110E+01
  2.165  0.110E+01
  2.175  0.110E+01
  2.185  0.106E+01
  2.195  0.102E+01
  2.205  0.986E+00
  2.215  0.950E+00
  2.225  0.916E+00
  2.235  0.884E+00
  2.245  0.854E+00
  2.255  0.826E+00
  2.265  0.802E+00
  2.275  0.786E+00
  2.285  0.774E+00
  2.295  0.764E+00
  2.305  0.756E+00
  2.315  0.748E+00
  2.325  0.744E+00
  2.335  0.742E+00
  2.345  0.740E+00
  2.355  0.740E+00
  2.365  0.738E+00
  2.375  0.736E+00
  2.385  0.734E+00
  2.395  0.734E+00
  2.405  0.732E+00
  2.415  0.730E+00
  2.425  0.730E+00
  2.435  0.728E+00
  2.445  0.728E+00
  2.455  0.728E+00
  2.465  0.726E+00
  2.475  0.726E+00
  2.485  0.726E+00
  2.495  0.726E+00
  2.505  0.726E+00
  2.515  0.726E+00
  2.525  0.726E+00
  2.535  0.726E+00
  2.545  0.726E+00
  2.555  0.726E+00
  2.565  0.728E+00
  2.575  0.728E+00
  2.585  0.730E+00
  2.595  0.730E+00
  2.605  0.732E+00
  2.615  0.734E+00
  2.625  0.736E+00
  2.635  0.738E+00
  2.645  0.740E+00
  2.655  0.742E+00
  2.665  0.742E+00
  2.675  0.742E+00
  2.685  0.744E+00
  2.695  0.746E+00
  2.705  0.746E+00
  2.715  0.748E+00
  2.725  0.750E+00
  2.735  0.750E+00
  2.745  0.752E+00
  2.755  0.754E+00
  2.765  0.756E+00
  2.775  0.758E+00
  2.785  0.760E+00
  2.795  0.764E+00
  2.805  0.766E+00
  2.815  0.768E+00
  2.825  0.770E+00
  2.835  0.880E+00
  2.845  0.980E+00
  2.855  0.926E+00
  2.865  0.870E+00
  2.875  0.832E+00
  2.885  0.814E+00
  2.895  0.812E+00
  2.905  0.816E+00
  2.915  0.820E+00
  2.925  0.824E+00
  2.935  0.828E+00
  2.945  0.834E+00
  2.955  0.840E+00
  2.965  0.846E+00
  2.975  0.852E+00
  2.985  0.858E+00
  2.995  0.866E+00
  3.005  0.874E+00
  3.015  0.882E+00
  3.025  0.890E+00
  3.035  0.898E+00
  3.045  0.908E+00
  3.055  0.918E+00
  3.065  0.928E+00
  3.075  0.938E+00
  3.085  0.950E+00
  3.095  0.960E+00
  3.105  0.972E+00
  3.115  0.984E+00
  3.125  0.107E+01
  3.135  0.118E+01
  3.145  0.115E+01
  3.155  0.113E+01
  3.165  0.111E+01
  3.175  0.110E+01
  3.185  0.109E+01
  3.195  0.108E+01
  3.205  0.108E+01
  3.215  0.109E+01
  3.225  0.110E+01
  3.235  0.111E+01
  3.245  0.112E+01
  3.255  0.113E+01
  3.265  0.114E+01
  3.275  0.115E+01
  3.285  0.117E+01
  3.295  0.118E+01
  3.305  0.120E+01
  3.315  0.122E+01
  3.325  0.125E+01
  3.335  0.127E+01
  3.345  0.130E+01
  3.355  0.133E+01
  3.365  0.137E+01
  3.375  0.140E+01
  3.385  0.142E+01
  3.395  0.134E+01
  3.405  0.128E+01
  3.415  0.124E+01
  3.425  0.122E+01
  3.435  0.122E+01
  3.445  0.121E+01
  3.455  0.121E+01
  3.465  0.121E+01
  3.475  0.121E+01
  3.485  0.120E+01
  3.495  0.120E+01
  3.505  0.120E+01
  3.515  0.120E+01
  3.525  0.119E+01
  3.535  0.119E+01
  3.545  0.119E+01
  3.555  0.119E+01
  3.565  0.119E+01
  3.575  0.118E+01
  3.585  0.118E+01
  3.595  0.118E+01
  3.605  0.118E+01
  3.615  0.117E+01
  3.625  0.117E+01
  3.635  0.117E+01
  3.645  0.117E+01
  3.655  0.116E+01
  3.665  0.116E+01
  3.675  0.116E+01
  3.685  0.116E+01
  3.695  0.116E+01
  3.705  0.117E+01
  3.715  0.117E+01
  3.725  0.117E+01
  3.735  0.117E+01
  3.745  0.117E+01
  3.755  0.117E+01
  3.765  0.117E+01
  3.775  0.117E+01
  3.785  0.117E+01
  3.795  0.117E+01
  3.805  0.117E+01
  3.815  0.117E+01
  3.825  0.117E+01
  3.835  0.117E+01
  3.845  0.116E+01
  3.855  0.116E+01
  3.865  0.116E+01
  3.875  0.116E+01
  3.885  0.116E+01
  3.895  0.116E+01
  3.905  0.115E+01
  3.915  0.115E+01
  3.925  0.115E+01
  3.935  0.115E+01
  3.945  0.115E+01
  3.955  0.114E+01
  3.965  0.114E+01
  3.975  0.114E+01
  3.985  0.114E+01
  3.995  0.114E+01
  4.005  0.113E+01
  4.015  0.113E+01
  4.025  0.113E+01
  4.035  0.113E+01
  4.045  0.113E+01
  4.055  0.112E+01
  4.065  0.112E+01
  4.075  0.112E+01
  4.085  0.112E+01
  4.095  0.112E+01
  4.105  0.112E+01
  4.115  0.112E+01
  4.125  0.112E+01
  4.135  0.112E+01
  4.145  0.111E+01
  4.155  0.111E+01
  4.165  0.111E+01
  4.175  0.110E+01
  4.185  0.110E+01
  4.195  0.110E+01
  4.205  0.110E+01
  4.215  0.110E+01
  4.225  0.110E+01
  4.235  0.110E+01
  4.245  0.110E+01
  4.255  0.110E+01
  4.265  0.110E+01
  4.275  0.110E+01
  4.285  0.110E+01
  4.295  0.110E+01
  4.305  0.110E+01
  4.315  0.111E+01
  4.325  0.111E+01
  4.335  0.111E+01
  4.345  0.111E+01
  4.355  0.111E+01
  4.365  0.111E+01
  4.375  0.111E+01
  4.385  0.111E+01
  4.395  0.111E+01
  4.405  0.111E+01
  4.415  0.111E+01
  4.425  0.111E+01
  4.435  0.110E+01
  4.445  0.110E+01
  4.455  0.110E+01
  4.465  0.109E+01
  4.475  0.109E+01
  4.485  0.109E+01
  4.495  0.108E+01
  4.505  0.108E+01
  4.515  0.108E+01
  4.525  0.107E+01
  4.535  0.107E+01
  4.545  0.106E+01
  4.555  0.106E+01
  4.565  0.106E+01
  4.575  0.105E+01
  4.585  0.105E+01
  4.595  0.104E+01
  4.605  0.104E+01
  4.615  0.103E+01
  4.625  0.103E+01
  4.635  0.102E+01
  4.645  0.102E+01
  4.655  0.101E+01
  4.665  0.101E+01
  4.675  0.100E+01
  4.685  0.998E+00
  4.695  0.994E+00
  4.705  0.996E+00
  4.715  0.996E+00
  4.725  0.998E+00
  4.735  0.100E+01
  4.745  0.100E+01
  4.755  0.100E+01
  4.765  0.100E+01
  4.775  0.100E+01
  4.785  0.100E+01
  4.795  0.100E+01
  4.805  0.100E+01
  4.815  0.998E+00
  4.825  0.996E+00
  4.835  0.992E+00
  4.845  0.988E+00
  4.855  0.982E+00
  4.865  0.976E+00
  4.875  0.970E+00
  4.885  0.962E+00
  4.895  0.954E+00
  4.905  0.942E+00
  4.915  0.926E+00
  4.925  0.906E+00
  4.935  0.878E+00
  4.945  0.846E+00
  4.955  0.814E+00
  4.965  0.786E+00
  4.975  0.760E+00
  4.985  0.740E+00
  4.995  0.722E+00
  5.005  0.710E+00
  5.015  0.702E+00
  5.025  0.696E+00
  5.035  0.688E+00
  5.045  0.682E+00
  5.055  0.676E+00
  5.065  0.668E+00
  5.075  0.662E+00
  5.085  0.656E+00
  5.095  0.648E+00
  5.105  0.642E+00
  5.115  0.634E+00
  5.125  0.626E+00
  5.135  0.616E+00
  5.145  0.604E+00
  5.155  0.594E+00
  5.165  0.582E+00
  5.175  0.570E+00
  5.185  0.558E+00
  5.195  0.546E+00
  5.205  0.534E+00
  5.215  0.520E+00
  5.225  0.508E+00
  5.235  0.500E+00
  5.245  0.492E+00
  5.255  0.486E+00
  5.265  0.478E+00
  5.275  0.470E+00
  5.285  0.464E+00
  5.295  0.456E+00
  5.305  0.448E+00
  5.315  0.442E+00
  5.325  0.434E+00
  5.335  0.426E+00
  5.345  0.420E+00
  5.355  0.412E+00
  5.365  0.406E+00
  5.375  0.398E+00
  5.385  0.392E+00
  5.395  0.386E+00
  5.405  0.378E+00
  5.415  0.372E+00
  5.425  0.366E+00
  5.435  0.360E+00
  5.445  0.354E+00
  5.455  0.348E+00
  5.465  0.342E+00
  5.475  0.336E+00
  5.485  0.330E+00
  5.495  0.324E+00
  5.505  0.318E+00
  5.515  0.312E+00
  5.525  0.306E+00
  5.535  0.302E+00
  5.545  0.296E+00
  5.555  0.290E+00
  5.565  0.286E+00
  5.575  0.280E+00
  5.585  0.274E+00
  5.595  0.270E+00
  5.605  0.264E+00
  5.615  0.258E+00
  5.625  0.252E+00
  5.635  0.246E+00
  5.645  0.242E+00
  5.655  0.236E+00
  5.665  0.230E+00
  5.675  0.226E+00
  5.685  0.220E+00
  5.695  0.216E+00
  5.705  0.210E+00
  5.715  0.206E+00
  5.725  0.202E+00
  5.735  0.198E+00
  5.745  0.194E+00
  5.755  0.190E+00
  5.765  0.186E+00
  5.775  0.183E+00
  5.785  0.179E+00
  5.795  0.176E+00
  5.805  0.173E+00
  5.815  0.170E+00
  5.825  0.168E+00
  5.835  0.165E+00
  5.845  0.163E+00
  5.855  0.160E+00
  5.865  0.158E+00
  5.875  0.156E+00
  5.885  0.155E+00
  5.895  0.153E+00
  5.905  0.151E+00
  5.915  0.150E+00
  5.925  0.149E+00
  5.935  0.147E+00
  5.945  0.141E+00
  5.955  0.880E-01
  5.965  0.632E-01
  5.975  0.552E-01
  5.985  0.490E-01
  5.995  0.430E-01
  6.005  0.376E-01
  6.015  0.324E-01
  6.025  0.278E-01
  6.035  0.234E-01
  6.045  0.194E-01
  6.055  0.157E-01
  6.065  0.124E-01
  6.075  0.956E-02
  6.085  0.704E-02
  6.095  0.490E-02
  6.105  0.316E-02
  6.115  0.178E-02
  6.125  0.798E-03
  6.135  0.204E-03
  6.145  0.656E-07
  6.155  0.000E+00
  6.165  0.000E+00
  6.175  0.000E+00
  6.185  0.000E+00
  6.195  0.000E+00
  6.205  0.000E+00
  6.215  0.000E+00
  6.225  0.000E+00
  6.235  0.000E+00
  6.245  0.000E+00
  6.255  0.000E+00
  6.265  0.000E+00
  6.275  0.000E+00
  6.285  0.000E+00
  6.295  0.000E+00
  6.305  0.000E+00
  6.315  0.000E+00
  6.325  0.000E+00
  6.335  0.000E+00
  6.345  0.000E+00
  6.355  0.000E+00
  6.365  0.000E+00
  6.375  0.000E+00
  6.385  0.000E+00
  6.395  0.000E+00
  6.405  0.000E+00
  6.415  0.000E+00
  6.425  0.000E+00
  6.435  0.000E+00
  6.445  0.000E+00
  6.455  0.000E+00
  6.465  0.000E+00
  6.475  0.000E+00
  6.485  0.000E+00
  6.495  0.000E+00
  6.505  0.000E+00
  6.515  0.000E+00
  6.525  0.000E+00
  6.535  0.000E+00
  6.545  0.000E+00
  6.555  0.000E+00
  6.565  0.000E+00
  6.575  0.000E+00
  6.585  0.000E+00
  6.595  0.000E+00
  6.605  0.000E+00
  6.615  0.000E+00
  6.625  0.129E-03
  6.635  0.786E-03
  6.645  0.200E-02
  6.655  0.376E-02
  6.665  0.604E-02
  6.675  0.888E-02
  6.685  0.122E-01
  6.695  0.161E-01
  6.705  0.204E-01
  6.715  0.254E-01
  6.725  0.308E-01
  6.735  0.366E-01
  6.745  0.430E-01
  6.755  0.490E-01
  6.765  0.542E-01
  6.775  0.588E-01
  6.785  0.628E-01
  6.795  0.662E-01
  6.805  0.690E-01
  6.815  0.710E-01
  6.825  0.724E-01
  6.835  0.732E-01
  6.845  0.732E-01
  6.855  0.746E-01
  6.865  0.784E-01
  6.875  0.824E-01
  6.885  0.864E-01
  6.895  0.904E-01
  6.905  0.948E-01
  6.915  0.990E-01
  6.925  0.103E+00
  6.935  0.108E+00
  6.945  0.112E+00
  6.955  0.116E+00
  6.965  0.120E+00
  6.975  0.124E+00
  6.985  0.128E+00
  6.995  0.132E+00
  7.005  0.136E+00
  7.015  0.140E+00
  7.025  0.144E+00
  7.035  0.148E+00
  7.045  0.152E+00
  7.055  0.156E+00
  7.065  0.160E+00
  7.075  0.164E+00
  7.085  0.168E+00
  7.095  0.171E+00
  7.105  0.176E+00
  7.115  0.180E+00
  7.125  0.185E+00
  7.135  0.189E+00
  7.145  0.193E+00
  7.155  0.198E+00
  7.165  0.202E+00
  7.175  0.206E+00
  7.185  0.210E+00
  7.195  0.216E+00
  7.205  0.220E+00
  7.215  0.224E+00
  7.225  0.228E+00
  7.235  0.232E+00
  7.245  0.236E+00
  7.255  0.242E+00
  7.265  0.246E+00
  7.275  0.250E+00
  7.285  0.254E+00
  7.295  0.258E+00
  7.305  0.262E+00
  7.315  0.268E+00
  7.325  0.272E+00
  7.335  0.276E+00
  7.345  0.282E+00
  7.355  0.286E+00
  7.365  0.290E+00
  7.375  0.296E+00
  7.385  0.300E+00
  7.395  0.306E+00
  7.405  0.312E+00
  7.415  0.316E+00
  7.425  0.322E+00
  7.435  0.328E+00
  7.445  0.334E+00
  7.455  0.338E+00
  7.465  0.344E+00
  7.475  0.350E+00
  7.485  0.356E+00
  7.495  0.362E+00
  7.505  0.368E+00
  7.515  0.374E+00
  7.525  0.382E+00
  7.535  0.388E+00
  7.545  0.394E+00
  7.555  0.400E+00
  7.565  0.408E+00
  7.575  0.414E+00
  7.585  0.420E+00
  7.595  0.428E+00
  7.605  0.434E+00
  7.615  0.444E+00
  7.625  0.454E+00
  7.635  0.458E+00
  7.645  0.462E+00
  7.655  0.466E+00
  7.665  0.470E+00
  7.675  0.474E+00
  7.685  0.478E+00
  7.695  0.482E+00
  7.705  0.486E+00
  7.715  0.490E+00
  7.725  0.494E+00
  7.735  0.498E+00
  7.745  0.502E+00
  7.755  0.506E+00
  7.765  0.508E+00
  7.775  0.512E+00
  7.785  0.516E+00
  7.795  0.520E+00
  7.805  0.522E+00
  7.815  0.526E+00
  7.825  0.530E+00
  7.835  0.532E+00
  7.845  0.536E+00
  7.855  0.540E+00
  7.865  0.544E+00
  7.875  0.548E+00
  7.885  0.552E+00
  7.895  0.556E+00
  7.905  0.562E+00
  7.915  0.568E+00
  7.925  0.576E+00
  7.935  0.582E+00
  7.945  0.588E+00
  7.955  0.596E+00
  7.965  0.602E+00
  7.975  0.610E+00
  7.985  0.616E+00
  7.995  0.624E+00
  8.005  0.632E+00
  8.015  0.640E+00
  8.025  0.648E+00
  8.035  0.656E+00
  8.045  0.664E+00
  8.055  0.672E+00
  8.065  0.680E+00
  8.075  0.690E+00
  8.085  0.698E+00
  8.095  0.708E+00
  8.105  0.718E+00
  8.115  0.726E+00
  8.125  0.736E+00
  8.135  0.746E+00
  8.145  0.758E+00
  8.155  0.768E+00
  8.165  0.780E+00
  8.175  0.792E+00
  8.185  0.804E+00
  8.195  0.818E+00
  8.205  0.830E+00
  8.215  0.844E+00
  8.225  0.858E+00
  8.235  0.872E+00
  8.245  0.884E+00
  8.255  0.896E+00
  8.265  0.908E+00
  8.275  0.918E+00
  8.285  0.930E+00
  8.295  0.942E+00
  8.305  0.954E+00
  8.315  0.970E+00
  8.325  0.992E+00
  8.335  0.101E+01
  8.345  0.104E+01
  8.355  0.106E+01
  8.365  0.108E+01
  8.375  0.110E+01
  8.385  0.112E+01
  8.395  0.114E+01
  8.405  0.116E+01
  8.415  0.118E+01
  8.425  0.120E+01
  8.435  0.121E+01
  8.445  0.123E+01
  8.455  0.124E+01
  8.465  0.125E+01
  8.475  0.125E+01
  8.485  0.126E+01
  8.495  0.127E+01
  8.505  0.127E+01
  8.515  0.128E+01
  8.525  0.128E+01
  8.535  0.129E+01
  8.545  0.129E+01
  8.555  0.130E+01
  8.565  0.130E+01
  8.575  0.130E+01
  8.585  0.130E+01
  8.595  0.130E+01
  8.605  0.130E+01
  8.615  0.130E+01
  8.625  0.130E+01
  8.635  0.129E+01
  8.645  0.128E+01
  8.655  0.128E+01
  8.665  0.122E+01
  8.675  0.121E+01
  8.685  0.119E+01
  8.695  0.118E+01
  8.705  0.116E+01
  8.715  0.114E+01
  8.725  0.113E+01
  8.735  0.111E+01
  8.745  0.109E+01
  8.755  0.107E+01
  8.765  0.104E+01
  8.775  0.101E+01
  8.785  0.984E+00
  8.795  0.948E+00
  8.805  0.910E+00
  8.815  0.866E+00
  8.825  0.818E+00
  8.835  0.772E+00
  8.845  0.734E+00
  8.855  0.704E+00
  8.865  0.680E+00
  8.875  0.658E+00
  8.885  0.638E+00
  8.895  0.618E+00
  8.905  0.600E+00
  8.915  0.584E+00
  8.925  0.568E+00
  8.935  0.554E+00
  8.945  0.542E+00
  8.955  0.530E+00
  8.965  0.524E+00
  8.975  0.520E+00
  8.985  0.518E+00
  8.995  0.514E+00
  9.005  0.512E+00
  9.015  0.510E+00
  9.025  0.510E+00
  9.035  0.508E+00
  9.045  0.506E+00
  9.055  0.504E+00
  9.065  0.504E+00
  9.075  0.502E+00
  9.085  0.500E+00
  9.095  0.500E+00
  9.105  0.498E+00
  9.115  0.498E+00
  9.125  0.498E+00
  9.135  0.498E+00
  9.145  0.500E+00
  9.155  0.500E+00
  9.165  0.502E+00
  9.175  0.506E+00
  9.185  0.512E+00
  9.195  0.518E+00
  9.205  0.526E+00
  9.215  0.534E+00
  9.225  0.546E+00
  9.235  0.558E+00
  9.245  0.572E+00
  9.255  0.588E+00
  9.265  0.606E+00
  9.275  0.626E+00
  9.285  0.646E+00
  9.295  0.668E+00
  9.305  0.692E+00
  9.315  0.718E+00
  9.325  0.744E+00
  9.335  0.774E+00
  9.345  0.806E+00
  9.355  0.842E+00
  9.365  0.888E+00
  9.375  0.952E+00
  9.385  0.103E+01
  9.395  0.122E+01
  9.405  0.141E+01
  9.415  0.154E+01
  9.425  0.162E+01
  9.435  0.166E+01
  9.445  0.170E+01
  9.455  0.172E+01
  9.465  0.173E+01
  9.475  0.262E+01
  9.485  0.268E+01
  9.495  0.226E+01
  9.505  0.210E+01
  9.515  0.210E+01
  9.525  0.212E+01
  9.535  0.216E+01
  9.545  0.218E+01
  9.555  0.218E+01
  9.565  0.218E+01
  9.575  0.218E+01
  9.585  0.216E+01
  9.595  0.214E+01
  9.605  0.210E+01
  9.615  0.206E+01
  9.625  0.200E+01
  9.635  0.195E+01
  9.645  0.189E+01
  9.655  0.184E+01
  9.665  0.179E+01
  9.675  0.174E+01
  9.685  0.170E+01
  9.695  0.165E+01
  9.705  0.162E+01
  9.715  0.161E+01
  9.725  0.159E+01
  9.735  0.156E+01
  9.745  0.154E+01
  9.755  0.152E+01
  9.765  0.152E+01
  9.775  0.154E+01
  9.785  0.156E+01
  9.795  0.159E+01
  9.805  0.163E+01
  9.815  0.151E+01
  9.825  0.139E+01
  9.835  0.137E+01
  9.845  0.135E+01
  9.855  0.132E+01
  9.865  0.130E+01
  9.875  0.128E+01
  9.885  0.125E+01
  9.895  0.123E+01
  9.905  0.121E+01
  9.915  0.119E+01
  9.925  0.117E+01
  9.935  0.116E+01
  9.945  0.114E+01
  9.955  0.113E+01
  9.965  0.112E+01
  9.975  0.111E+01
  9.985  0.110E+01
  9.995  0.109E+01
 10.005  0.107E+01
 10.015  0.106E+01
 10.025  0.105E+01
 10.035  0.104E+01
 10.045  0.104E+01
 10.055  0.103E+01
 10.065  0.102E+01
 10.075  0.101E+01
 10.085  0.100E+01
 10.095  0.998E+00
 10.105  0.992E+00
 10.115  0.986E+00
 10.125  0.980E+00
 10.135  0.974E+00
 10.145  0.968E+00
 10.155  0.962E+00
 10.165  0.956E+00
 10.175  0.950E+00
 10.185  0.944E+00
 10.195  0.940E+00
 10.205  0.934E+00
 10.215  0.928E+00
 10.225  0.922E+00
 10.235  0.916E+00
 10.245  0.910E+00
 10.255  0.904E+00
 10.265  0.896E+00
 10.275  0.890E+00
 10.285  0.882E+00
 10.295  0.874E+00
 10.305  0.868E+00
 10.315  0.860E+00
 10.325  0.850E+00
 10.335  0.842E+00
 10.345  0.834E+00
 10.355  0.824E+00
 10.365  0.814E+00
 10.375  0.806E+00
 10.385  0.796E+00
 10.395  0.784E+00
 10.405  0.774E+00
 10.415  0.764E+00
 10.425  0.754E+00
 10.435  0.744E+00
 10.445  0.738E+00
 10.455  0.736E+00
 10.465  0.736E+00
 10.475  0.736E+00
 10.485  0.734E+00
 10.495  0.734E+00
 10.505  0.734E+00
 10.515  0.736E+00
 10.525  0.736E+00
 10.535  0.738E+00
 10.545  0.740E+00
 10.555  0.742E+00
 10.565  0.744E+00
 10.575  0.746E+00
 10.585  0.750E+00
 10.595  0.752E+00
 10.605  0.756E+00
 10.615  0.760E+00
 10.625  0.764E+00
 10.635  0.770E+00
 10.645  0.774E+00
 10.655  0.780E+00
 10.665  0.788E+00
 10.675  0.794E+00
 10.685  0.796E+00
 10.695  0.792E+00
 10.705  0.788E+00
 10.715  0.784E+00
 10.725  0.778E+00
 10.735  0.774E+00
 10.745  0.770E+00
 10.755  0.764E+00
 10.765  0.760E+00
 10.775  0.748E+00
 10.785  0.758E+00
 10.795  0.770E+00
 10.805  0.782E+00
 10.815  0.794E+00
 10.825  0.802E+00
 10.835  0.810E+00
 10.845  0.816E+00
 10.855  0.822E+00
 10.865  0.826E+00
 10.875  0.828E+00
 10.885  0.832E+00
 10.895  0.832E+00
 10.905  0.834E+00
 10.915  0.836E+00
 10.925  0.836E+00
 10.935  0.838E+00
 10.945  0.838E+00
 10.955  0.840E+00
 10.965  0.842E+00
 10.975  0.844E+00
 10.985  0.846E+00
 10.995  0.850E+00
 11.005  0.852E+00
 11.015  0.852E+00
 11.025  0.846E+00
 11.035  0.834E+00
 11.045  0.820E+00
 11.055  0.804E+00
 11.065  0.798E+00
 11.075  0.792E+00
 11.085  0.784E+00
 11.095  0.776E+00
 11.105  0.766E+00
 11.115  0.758E+00
 11.125  0.748E+00
 11.135  0.740E+00
 11.145  0.734E+00
 11.155  0.728E+00
 11.165  0.720E+00
 11.175  0.712E+00
 11.185  0.704E+00
 11.195  0.694E+00
 11.205  0.686E+00
 11.215  0.678E+00
 11.225  0.672E+00
 11.235  0.666E+00
 11.245  0.662E+00
 11.255  0.652E+00
 11.265  0.640E+00
 11.275  0.632E+00
 11.285  0.626E+00
 11.295  0.620E+00
 11.305  0.618E+00
 11.315  0.614E+00
 11.325  0.610E+00
 11.335  0.608E+00
 11.345  0.606E+00
 11.355  0.604E+00
 11.365  0.602E+00
 11.375  0.600E+00
 11.385  0.598E+00
 11.395  0.596E+00
 11.405  0.594E+00
 11.415  0.592E+00
 11.425  0.590E+00
 11.435  0.586E+00
 11.445  0.584E+00
 11.455  0.580E+00
 11.465  0.576E+00
 11.475  0.572E+00
 11.485  0.568E+00
 11.495  0.564E+00
 11.505  0.560E+00
 11.515  0.556E+00
 11.525  0.552E+00
 11.535  0.548E+00
 11.545  0.546E+00
 11.555  0.546E+00
 11.565  0.548E+00
 11.575  0.552E+00
 11.585  0.556E+00
 11.595  0.550E+00
 11.605  0.544E+00
 11.615  0.538E+00
 11.625  0.532E+00
 11.635  0.528E+00
 11.645  0.522E+00
 11.655  0.518E+00
 11.665  0.512E+00
 11.675  0.508E+00
 11.685  0.502E+00
 11.695  0.498E+00
 11.705  0.494E+00
 11.715  0.490E+00
 11.725  0.486E+00
 11.735  0.480E+00
 11.745  0.476E+00
 11.755  0.472E+00
 11.765  0.468E+00
 11.775  0.464E+00
 11.785  0.460E+00
 11.795  0.458E+00
 11.805  0.454E+00
 11.815  0.450E+00
 11.825  0.446E+00
 11.835  0.442E+00
 11.845  0.438E+00
 11.855  0.436E+00
 11.865  0.432E+00
 11.875  0.428E+00
 11.885  0.424E+00
 11.895  0.420E+00
 11.905  0.418E+00
 11.915  0.414E+00
 11.925  0.422E+00
 11.935  0.454E+00
 11.945  0.476E+00
 11.955  0.490E+00
 11.965  0.494E+00
 11.975  0.488E+00
 11.985  0.472E+00
 11.995  0.446E+00
 12.005  0.416E+00
 12.015  0.412E+00
 12.025  0.456E+00
 12.035  0.494E+00
 12.045  0.490E+00
 12.055  0.472E+00
 12.065  0.456E+00
 12.075  0.442E+00
 12.085  0.430E+00
 12.095  0.420E+00
 12.105  0.414E+00
 12.115  0.410E+00
 12.125  0.408E+00
 12.135  0.404E+00
 12.145  0.402E+00
 12.155  0.400E+00
 12.165  0.398E+00
 12.175  0.396E+00
 12.185  0.394E+00
 12.195  0.392E+00
 12.205  0.390E+00
 12.215  0.388E+00
 12.225  0.386E+00
 12.235  0.386E+00
 12.245  0.384E+00
 12.255  0.382E+00
 12.265  0.382E+00
 12.275  0.382E+00
 12.285  0.380E+00
 12.295  0.380E+00
 12.305  0.380E+00
 12.315  0.380E+00
 12.325  0.380E+00
 12.335  0.380E+00
 12.345  0.380E+00
 12.355  0.380E+00
 12.365  0.380E+00
 12.375  0.382E+00
 12.385  0.382E+00
 12.395  0.384E+00
 12.405  0.384E+00
 12.415  0.386E+00
 12.425  0.388E+00
 12.435  0.390E+00
 12.445  0.392E+00
 12.455  0.396E+00
 12.465  0.398E+00
 12.475  0.402E+00
 12.485  0.404E+00
 12.495  0.408E+00
 12.505  0.412E+00
 12.515  0.416E+00
 12.525  0.422E+00
 12.535  0.426E+00
 12.545  0.432E+00
 12.555  0.438E+00
 12.565  0.442E+00
 12.575  0.448E+00
 12.585  0.454E+00
 12.595  0.460E+00
 12.605  0.468E+00
 12.615  0.474E+00
 12.625  0.480E+00
 12.635  0.488E+00
 12.645  0.494E+00
 12.655  0.502E+00
 12.665  0.510E+00
 12.675  0.516E+00
 12.685  0.524E+00
 12.695  0.532E+00
 12.705  0.538E+00
 12.715  0.542E+00
 12.725  0.546E+00
 12.735  0.550E+00
 12.745  0.552E+00
 12.755  0.554E+00
 12.765  0.556E+00
 12.775  0.556E+00
 12.785  0.556E+00
 12.795  0.554E+00
 12.805  0.550E+00
 12.815  0.546E+00
 12.825  0.534E+00
 12.835  0.524E+00
 12.845  0.514E+00
 12.855  0.504E+00
 12.865  0.498E+00
 12.875  0.490E+00
 12.885  0.486E+00
 12.895  0.480E+00
 12.905  0.476E+00
 12.915  0.474E+00
 12.925  0.470E+00
 12.935  0.466E+00
 12.945  0.462E+00
 12.955  0.458E+00
 12.965  0.454E+00
 12.975  0.450E+00
 12.985  0.446E+00
 12.995  0.440E+00
 13.005  0.436E+00
 13.015  0.432E+00
 13.025  0.428E+00
 13.035  0.424E+00
 13.045  0.420E+00
 13.055  0.416E+00
 13.065  0.412E+00
 13.075  0.408E+00
 13.085  0.404E+00
 13.095  0.400E+00
 13.105  0.396E+00
 13.115  0.392E+00
 13.125  0.388E+00
 13.135  0.384E+00
 13.145  0.380E+00
 13.155  0.376E+00
 13.165  0.372E+00
 13.175  0.368E+00
 13.185  0.364E+00
 13.195  0.362E+00
 13.205  0.358E+00
 13.215  0.356E+00
 13.225  0.352E+00
 13.235  0.348E+00
 13.245  0.346E+00
 13.255  0.342E+00
 13.265  0.340E+00
 13.275  0.336E+00
 13.285  0.332E+00
 13.295  0.330E+00
 13.305  0.326E+00
 13.315  0.324E+00
 13.325  0.320E+00
 13.335  0.318E+00
 13.345  0.314E+00
 13.355  0.312E+00
 13.365  0.308E+00
 13.375  0.306E+00
 13.385  0.302E+00
 13.395  0.300E+00
 13.405  0.296E+00
 13.415  0.294E+00
 13.425  0.292E+00
 13.435  0.288E+00
 13.445  0.286E+00
 13.455  0.282E+00
 13.465  0.280E+00
 13.475  0.276E+00
 13.485  0.274E+00
 13.495  0.272E+00
 13.505  0.268E+00
 13.515  0.266E+00
 13.525  0.264E+00
 13.535  0.260E+00
 13.545  0.258E+00
 13.555  0.254E+00
 13.565  0.252E+00
 13.575  0.250E+00
 13.585  0.246E+00
 13.595  0.244E+00
 13.605  0.242E+00
 13.615  0.238E+00
 13.625  0.236E+00
 13.635  0.234E+00
 13.645  0.230E+00
 13.655  0.228E+00
 13.665  0.226E+00
 13.675  0.224E+00
 13.685  0.224E+00
 13.695  0.226E+00
 13.705  0.228E+00
 13.715  0.232E+00
 13.725  0.238E+00
 13.735  0.244E+00
 13.745  0.252E+00
 13.755  0.262E+00
 13.765  0.274E+00
 13.775  0.286E+00
 13.785  0.302E+00
 13.795  0.316E+00
 13.805  0.328E+00
 13.815  0.336E+00
 13.825  0.356E+00
 13.835  0.384E+00
 13.845  0.390E+00
 13.855  0.378E+00
 13.865  0.354E+00
 13.875  0.334E+00
 13.885  0.312E+00
 13.895  0.292E+00
 13.905  0.274E+00
 13.915  0.256E+00
 13.925  0.238E+00
 13.935  0.222E+00
 13.945  0.208E+00
 13.955  0.194E+00
 13.965  0.182E+00
 13.975  0.170E+00
 13.985  0.160E+00
 13.995  0.152E+00
 14.005  0.144E+00
 14.015  0.138E+00
 14.025  0.133E+00
 14.035  0.130E+00
 14.045  0.128E+00
 14.055  0.127E+00
 14.065  0.126E+00
 14.075  0.126E+00
 14.085  0.125E+00
 14.095  0.125E+00
 14.105  0.125E+00
 14.115  0.124E+00
 14.125  0.124E+00
 14.135  0.124E+00
 14.145  0.123E+00
 14.155  0.123E+00
 14.165  0.123E+00
 14.175  0.123E+00
 14.185  0.123E+00
 14.195  0.123E+00
 14.205  0.123E+00
 14.215  0.123E+00
 14.225  0.124E+00
 14.235  0.124E+00
 14.245  0.125E+00
 14.255  0.126E+00
 14.265  0.127E+00
 14.275  0.127E+00
 14.285  0.128E+00
 14.295  0.129E+00
 14.305  0.129E+00
 14.315  0.130E+00
 14.325  0.131E+00
 14.335  0.131E+00
 14.345  0.132E+00
 14.355  0.132E+00
 14.365  0.133E+00
 14.375  0.134E+00
 14.385  0.134E+00
 14.395  0.135E+00
 14.405  0.135E+00
 14.415  0.135E+00
 14.425  0.136E+00
 14.435  0.136E+00
 14.445  0.137E+00
 14.455  0.137E+00
 14.465  0.137E+00
 14.475  0.137E+00
 14.485  0.138E+00
 14.495  0.138E+00
 14.505  0.138E+00
 14.515  0.138E+00
 14.525  0.138E+00
 14.535  0.138E+00
 14.545  0.138E+00
 14.555  0.138E+00
 14.565  0.138E+00
 14.575  0.138E+00
 14.585  0.138E+00
 14.595  0.138E+00
 14.605  0.139E+00
 14.615  0.140E+00
 14.625  0.141E+00
 14.635  0.142E+00
 14.645  0.143E+00
 14.655  0.144E+00
 14.665  0.144E+00
 14.675  0.144E+00
 14.685  0.144E+00
 14.695  0.144E+00
 14.705  0.143E+00
 14.715  0.143E+00
 14.725  0.142E+00
 14.735  0.141E+00
 14.745  0.140E+00
 14.755  0.138E+00
 14.765  0.136E+00
 14.775  0.134E+00
 14.785  0.131E+00
 14.795  0.129E+00
 14.805  0.125E+00
 14.815  0.122E+00
 14.825  0.118E+00
 14.835  0.113E+00
 14.845  0.109E+00
 14.855  0.104E+00
 14.865  0.982E-01
 14.875  0.926E-01
 14.885  0.864E-01
 14.895  0.798E-01
 14.905  0.728E-01
 14.915  0.654E-01
 14.925  0.576E-01
 14.935  0.492E-01
 14.945  0.456E-01
 14.955  0.450E-01
 14.965  0.444E-01
 14.975  0.438E-01
 14.985  0.432E-01
 14.995  0.426E-01
 15.005  0.420E-01
 15.015  0.414E-01
 15.025  0.408E-01
 15.035  0.402E-01
 15.045  0.396E-01
 15.055  0.390E-01
 15.065  0.384E-01
 15.075  0.378E-01
 15.085  0.372E-01
 15.095  0.366E-01
 15.105  0.360E-01
 15.115  0.354E-01
 15.125  0.350E-01
 15.135  0.344E-01
 15.145  0.338E-01
 15.155  0.332E-01
 15.165  0.326E-01
 15.175  0.320E-01
 15.185  0.316E-01
 15.195  0.310E-01
 15.205  0.304E-01
 15.215  0.298E-01
 15.225  0.294E-01
 15.235  0.288E-01
 15.245  0.282E-01
 15.255  0.278E-01
 15.265  0.272E-01
 15.275  0.266E-01
 15.285  0.262E-01
 15.295  0.256E-01
 15.305  0.252E-01
 15.315  0.246E-01
 15.325  0.242E-01
 15.335  0.236E-01
 15.345  0.232E-01
 15.355  0.226E-01
 15.365  0.222E-01
 15.375  0.216E-01
 15.385  0.212E-01
 15.395  0.208E-01
 15.405  0.202E-01
 15.415  0.198E-01
 15.425  0.193E-01
 15.435  0.188E-01
 15.445  0.184E-01
 15.455  0.179E-01
 15.465  0.175E-01
 15.475  0.170E-01
 15.485  0.166E-01
 15.495  0.162E-01
 15.505  0.157E-01
 15.515  0.153E-01
 15.525  0.149E-01
 15.535  0.145E-01
 15.545  0.141E-01
 15.555  0.137E-01
 15.565  0.133E-01
 15.575  0.129E-01
 15.585  0.125E-01
 15.595  0.121E-01
 15.605  0.117E-01
 15.615  0.114E-01
 15.625  0.110E-01
 15.635  0.106E-01
 15.645  0.103E-01
 15.655  0.992E-02
 15.665  0.956E-02
 15.675  0.922E-02
 15.685  0.888E-02
 15.695  0.856E-02
 15.705  0.822E-02
 15.715  0.790E-02
 15.725  0.758E-02
 15.735  0.728E-02
 15.745  0.698E-02
 15.755  0.668E-02
 15.765  0.638E-02
 15.775  0.610E-02
 15.785  0.582E-02
 15.795  0.554E-02
 15.805  0.528E-02
 15.815  0.502E-02
 15.825  0.476E-02
 15.835  0.452E-02
 15.845  0.426E-02
 15.855  0.404E-02
 15.865  0.380E-02
 15.875  0.358E-02
 15.885  0.336E-02
 15.895  0.314E-02
 15.905  0.294E-02
 15.915  0.274E-02
 15.925  0.254E-02
 15.935  0.236E-02
 15.945  0.218E-02
 15.955  0.202E-02
 15.965  0.185E-02
 15.975  0.169E-02
 15.985  0.154E-02
 15.995  0.139E-02
 16.005  0.125E-02
 16.015  0.112E-02
 16.025  0.998E-03
 16.035  0.880E-03
 16.045  0.770E-03
 16.055  0.666E-03
 16.065  0.572E-03
 16.075  0.482E-03
 16.085  0.402E-03
 16.095  0.328E-03
 16.105  0.262E-03
 16.115  0.202E-03
 16.125  0.150E-03
 16.135  0.106E-03
 16.145  0.698E-04
 16.155  0.408E-04
 16.165  0.196E-04
 16.175  0.606E-05
 16.185  0.240E-06
 16.195  0.000E+00
